timestamp,ADCS_MODE,ACCEL_X,ACCEL_Y,ACCEL_Z,GYRO_X,GYRO_Y,GYRO_Z,MAG_X,MAG_Y,MAG_Z,SUN_SENSOR_1a,SUN_SENSOR_1b,SUN_SENSOR_2a,SUN_SENSOR_2b,SUN_SENSOR_3a,SUN_SENSOR_3b,SUN_SENSOR_4a,SUN_SENSOR_4b,SUN_ANGLE,WHEEL_SPEED,MAGNETORQUER_X,MAGNETORQUER_Y,MAGNETORQUER_Z,KP_VALUE,KD_VALUE,ADCS_VERSION,ADCS_ACC_CNT,ADCS_REJ_CNT,ADCS_INC_CNT,MAG_DEPLOYMENT_STATUS,elapsed_s,anomaly,anomaly_type
2026-12-03 10:53:38.531,0.0,0.0,0.0,0.0,0.0,0.0,0.0,0.0,0.0,0.0,0.0,0.0,0.0,0.0,0.0,0.0,0.0,0.0,0.0,0.0,0.0,0.0,0.0,0.0,0.0,0.0,0.0,0.0,0.0,0.0,0.0,False,
2026-12-03 10:53:39.274,0.0,0.0,0.0,0.0,0.0,0.0,0.0,0.0,0.0,0.0,0.0,0.0,0.0,0.0,0.0,0.0,0.0,0.0,0.0,0.0,0.0,0.0,0.0,0.0,0.0,0.0,0.0,0.0,0.0,0.0,0.743,False,
2026-12-03 10:53:39.577,0.0,0.0,0.0,0.0,0.0,0.0,0.0,0.0,0.0,0.0,0.0,0.0,0.0,0.0,0.0,0.0,0.0,0.0,0.0,0.0,0.0,0.0,0.0,0.0,0.0,0.0,0.0,0.0,0.0,0.0,1.046,False,
2026-12-03 10:53:40.025,0.0,0.0,0.0,0.0,0.0,0.0,0.0,0.0,0.0,0.0,0.0,0.0,0.0,0.0,0.0,0.0,0.0,0.0,0.0,0.0,0.0,0.0,0.0,0.0,0.0,0.0,0.0,0.0,0.0,0.0,1.494,False,
2026-12-03 10:53:40.779,0.0,0.0,0.0,0.0,0.0,0.0,0.0,0.0,0.0,0.0,0.0,0.0,0.0,0.0,0.0,0.0,0.0,0.0,0.0,0.0,0.0,0.0,0.0,0.0,0.0,0.0,0.0,0.0,0.0,0.0,2.248,False,
2026-12-03 10:53:41.078,0.0,0.0,0.0,0.0,0.0,0.0,0.0,0.0,0.0,0.0,0.0,0.0,0.0,0.0,0.0,0.0,0.0,0.0,0.0,0.0,0.0,0.0,0.0,0.0,0.0,0.0,0.0,0.0,0.0,0.0,2.547,False,
2026-12-03 10:53:41.528,0.0,0.0,0.0,0.0,0.0,0.0,0.0,0.0,0.0,0.0,0.0,0.0,0.0,0.0,0.0,0.0,0.0,0.0,0.0,0.0,0.0,0.0,0.0,0.0,0.0,0.0,0.0,0.0,0.0,0.0,2.997,False,
2026-12-03 10:53:42.283,0.0,0.0,0.0,0.0,0.0,0.0,0.0,0.0,0.0,0.0,0.0,0.0,0.0,0.0,0.0,0.0,0.0,0.0,0.0,0.0,0.0,0.0,0.0,0.0,0.0,0.0,0.0,0.0,0.0,0.0,3.752,False,
2026-12-03 10:53:42.631,0.0,0.0,0.0,0.0,0.0,0.0,0.0,0.0,0.0,0.0,0.0,0.0,0.0,0.0,0.0,0.0,0.0,0.0,0.0,0.0,0.0,0.0,0.0,0.0,0.0,0.0,0.0,0.0,0.0,0.0,4.1,False,
2026-12-03 10:53:43.031,0.0,0.0,0.0,0.0,0.0,0.0,0.0,0.0,0.0,0.0,0.0,0.0,0.0,0.0,0.0,0.0,0.0,0.0,0.0,0.0,0.0,0.0,0.0,0.0,0.0,0.0,0.0,0.0,0.0,0.0,4.5,False,
2026-12-03 10:53:43.782,0.0,0.0,0.0,0.0,0.0,0.0,0.0,0.0,0.0,0.0,0.0,0.0,0.0,0.0,0.0,0.0,0.0,0.0,0.0,0.0,0.0,0.0,0.0,0.0,0.0,0.0,0.0,0.0,0.0,0.0,5.251,False,
2026-12-03 10:53:44.532,0.0,0.0,0.0,0.0,0.0,0.0,0.0,0.0,0.0,0.0,0.0,0.0,0.0,0.0,0.0,0.0,0.0,0.0,0.0,0.0,0.0,0.0,0.0,0.0,0.0,0.0,0.0,0.0,0.0,0.0,6.001,False,
2026-12-03 10:53:45.281,0.0,0.0,0.0,0.0,0.0,0.0,0.0,0.0,0.0,0.0,0.0,0.0,0.0,0.0,0.0,0.0,0.0,0.0,0.0,0.0,0.0,0.0,0.0,0.0,0.0,0.0,0.0,0.0,0.0,0.0,6.75,False,
2026-12-03 10:53:45.582,0.0,0.0,0.0,0.0,0.0,0.0,0.0,0.0,0.0,0.0,0.0,0.0,0.0,0.0,0.0,0.0,0.0,0.0,0.0,0.0,0.0,0.0,0.0,0.0,0.0,0.0,0.0,0.0,0.0,0.0,7.051,False,
2026-12-03 10:53:46.082,0.0,0.0,0.0,0.0,0.0,0.0,0.0,0.0,0.0,0.0,0.0,0.0,0.0,0.0,0.0,0.0,0.0,0.0,0.0,0.0,0.0,0.0,0.0,0.0,0.0,0.0,0.0,0.0,0.0,0.0,7.551,False,
2026-12-03 10:53:46.783,0.0,0.0,0.0,0.0,0.0,0.0,0.0,0.0,0.0,0.0,0.0,0.0,0.0,0.0,0.0,0.0,0.0,0.0,0.0,0.0,0.0,0.0,0.0,0.0,0.0,0.0,0.0,0.0,0.0,0.0,8.252,False,
2026-12-03 10:53:47.085,0.0,0.0,0.0,0.0,0.0,0.0,0.0,0.0,0.0,0.0,0.0,0.0,0.0,0.0,0.0,0.0,0.0,0.0,0.0,0.0,0.0,0.0,0.0,0.0,0.0,0.0,0.0,0.0,0.0,0.0,8.554,False,
2026-12-03 10:53:47.585,0.0,0.0,0.0,0.0,0.0,0.0,0.0,0.0,0.0,0.0,0.0,0.0,0.0,0.0,0.0,0.0,0.0,0.0,0.0,0.0,0.0,0.0,0.0,0.0,0.0,0.0,0.0,0.0,0.0,0.0,9.054,False,
2026-12-03 10:53:48.287,0.0,0.0,0.0,0.0,0.0,0.0,0.0,0.0,0.0,0.0,0.0,0.0,0.0,0.0,0.0,0.0,0.0,0.0,0.0,0.0,0.0,0.0,0.0,0.0,0.0,0.0,0.0,0.0,0.0,0.0,9.756,False,
2026-12-03 10:53:48.608,0.0,0.0,0.0,0.0,0.0,0.0,0.0,0.0,0.0,0.0,0.0,0.0,0.0,0.0,0.0,0.0,0.0,0.0,0.0,0.0,0.0,0.0,0.0,0.0,0.0,0.0,0.0,0.0,0.0,0.0,10.077,False,
2026-12-03 10:53:49.058,0.0,0.0,0.0,0.0,0.0,0.0,0.0,0.0,0.0,0.0,0.0,0.0,0.0,0.0,0.0,0.0,0.0,0.0,0.0,0.0,0.0,0.0,0.0,0.0,0.0,0.0,0.0,0.0,0.0,0.0,10.527,False,
2026-12-03 10:53:49.610,0.0,0.0,0.0,0.0,0.0,0.0,0.0,0.0,0.0,0.0,0.0,0.0,0.0,0.0,0.0,0.0,0.0,0.0,0.0,0.0,0.0,0.0,0.0,0.0,0.0,0.0,0.0,0.0,0.0,0.0,11.079,False,
2026-12-03 10:53:50.060,0.0,0.0,0.0,0.0,0.0,0.0,0.0,0.0,0.0,0.0,0.0,0.0,0.0,0.0,0.0,0.0,0.0,0.0,0.0,0.0,0.0,0.0,0.0,0.0,0.0,0.0,0.0,0.0,0.0,0.0,11.529,False,
2026-12-03 10:53:50.612,0.0,0.0,0.0,0.0,0.0,0.0,0.0,0.0,0.0,0.0,0.0,0.0,0.0,0.0,0.0,0.0,0.0,0.0,0.0,0.0,0.0,0.0,0.0,0.0,0.0,0.0,0.0,0.0,0.0,0.0,12.081,False,
2026-12-03 10:53:51.063,0.0,0.0,0.0,0.0,0.0,0.0,0.0,0.0,0.0,0.0,0.0,0.0,0.0,0.0,0.0,0.0,0.0,0.0,0.0,0.0,0.0,0.0,0.0,0.0,0.0,0.0,0.0,0.0,0.0,0.0,12.532,False,
2026-12-03 10:53:51.567,0.0,0.0,0.0,0.0,0.0,0.0,0.0,6.684,-10.336,-24.0,10.0,10.0,10.0,11.0,28.0,42.0,19.0,15.0,0.0,0.0,0.0,0.0,0.0,320.0,1.0,0.0,0.0,0.0,0.0,0.0,13.036,False,
2026-12-03 10:53:52.268,0.0,-0.03,-0.01,-1.01,-0.61,0.42,0.06,-12.918,-28.772,-12.3,9.0,10.0,10.0,11.0,28.0,42.0,19.0,16.0,0.0,0.0,0.0,0.0,0.0,320.0,1.0,0.0,0.0,0.0,0.0,0.0,13.737,False,
2026-12-03 10:53:53.316,0.0,-0.03,-0.01,-1.01,-1.58,0.42,1.58,-5.174,31.364,-15.6,9.0,10.0,10.0,11.0,27.0,42.0,26.0,16.0,0.0,0.0,0.0,0.0,0.0,320.0,1.0,0.0,0.0,0.0,0.0,0.0,14.785,False,
2026-12-03 10:53:53.669,0.0,-0.03,-0.01,-1.01,0.54,-0.24,3.47,8.621,-9.736,-20.7,9.0,10.0,10.0,11.0,27.0,42.0,19.0,15.0,0.0,0.0,0.0,0.0,0.0,320.0,1.0,0.0,0.0,0.0,0.0,0.0,15.138,False,
2026-12-03 10:53:54.271,0.0,-0.03,-0.01,-1.01,-1.89,0.36,-1.34,9.831,-5.836,-19.8,9.0,10.0,10.0,11.0,28.0,29.0,19.0,15.0,0.0,0.0,0.0,0.0,0.0,320.0,1.0,0.0,0.0,0.0,0.0,0.0,15.74,False,
2026-12-03 10:53:54.570,0.0,-0.03,-0.01,-1.01,0.97,-0.12,-2.68,1.119,-1.936,-15.0,9.0,10.0,10.0,11.0,27.0,29.0,19.0,16.0,0.0,0.0,0.0,0.0,0.0,320.0,1.0,0.0,0.0,0.0,0.0,0.0,16.039,False,
2026-12-03 10:53:55.024,0.0,-0.03,-0.01,-1.01,-2.13,0.36,2.01,9.588,6.164,-19.5,9.0,10.0,10.0,11.0,27.0,29.0,19.0,16.0,0.0,0.0,0.0,0.0,0.0,320.0,1.0,0.0,0.0,0.0,0.0,0.0,16.493,False,
2026-12-03 10:53:55.774,0.0,-0.03,-0.01,-1.01,1.09,-0.06,1.58,8.378,6.764,-19.8,9.0,10.0,10.0,11.0,27.0,42.0,19.0,15.0,0.0,0.0,0.0,0.0,0.0,320.0,1.0,0.0,0.0,0.0,0.0,0.0,17.243,False,
2026-12-03 10:53:56.077,0.0,-0.03,-0.01,-1.01,-2.19,0.0,-1.89,9.104,6.464,-18.9,9.0,10.0,10.0,11.0,27.0,42.0,19.0,15.0,0.0,0.0,0.0,0.0,0.0,320.0,1.0,0.0,0.0,0.0,0.0,0.0,17.546,False,
2026-12-03 10:53:56.526,0.0,-0.03,-0.01,-1.01,0.79,-0.06,-0.73,8.378,4.964,-20.1,9.0,10.0,10.0,11.0,27.0,29.0,19.0,16.0,0.0,0.0,0.0,0.0,0.0,320.0,1.0,0.0,0.0,0.0,0.0,0.0,17.995,False,
2026-12-03 10:53:57.280,0.0,-0.03,-0.01,-1.01,-1.64,0.18,2.38,9.347,6.164,-19.8,9.0,10.0,10.0,11.0,27.0,29.0,19.0,16.0,0.0,0.0,0.0,0.0,0.0,320.0,1.0,0.0,0.0,0.0,0.0,0.0,18.749,False,
2026-12-03 10:53:57.580,0.0,-0.03,-0.01,-1.01,0.24,0.06,-0.36,7.894,6.764,-19.2,9.0,10.0,10.0,11.0,27.0,42.0,26.0,15.0,0.0,0.0,0.0,0.0,0.0,320.0,1.0,0.0,0.0,0.0,0.0,0.0,19.049,False,
2026-12-03 10:53:58.082,0.0,-0.03,-0.01,-1.01,-1.03,0.06,-1.64,6.927,5.564,-18.9,9.0,10.0,10.0,11.0,27.0,42.0,19.0,15.0,0.0,0.0,0.0,0.0,0.0,320.0,1.0,0.0,0.0,0.0,0.0,0.0,19.551,False,
2026-12-03 10:53:58.784,0.0,-0.03,-0.01,-1.01,-0.67,0.18,1.09,8.378,6.764,-20.4,9.0,10.0,10.0,11.0,28.0,29.0,19.0,16.0,0.0,0.0,0.0,0.0,0.0,320.0,1.0,0.0,0.0,0.0,0.0,0.0,20.253,False,
2026-12-03 10:53:59.084,0.0,-0.03,-0.01,-1.01,-0.3,-0.06,1.15,8.137,5.564,-18.6,9.0,10.0,10.0,11.0,27.0,29.0,19.0,16.0,0.0,0.0,0.0,0.0,0.0,320.0,1.0,0.0,0.0,0.0,0.0,0.0,20.553,False,
2026-12-03 10:53:59.582,0.0,-0.03,-0.01,-1.01,-1.28,0.12,-1.09,8.863,5.864,-18.9,9.0,10.0,10.0,11.0,27.0,42.0,26.0,15.0,0.0,0.0,0.0,0.0,0.0,320.0,1.0,0.0,0.0,0.0,0.0,0.0,21.051,False,
2026-12-03 10:54:00.286,0.0,-0.03,-0.01,-1.01,0.36,-0.12,-0.61,9.104,6.164,-18.9,9.0,10.0,10.0,10.0,27.0,42.0,19.0,15.0,0.0,0.0,0.0,0.0,0.0,320.0,1.0,0.0,0.0,0.0,0.0,0.0,21.755,False,
2026-12-03 10:54:00.583,0.0,-0.03,-0.01,-1.01,-1.64,0.3,1.4,9.104,5.564,-19.2,9.0,10.0,10.0,11.0,28.0,29.0,19.0,16.0,0.0,0.0,0.0,0.0,0.0,320.0,1.0,0.0,0.0,0.0,0.0,0.0,22.052,False,
2026-12-03 10:54:01.036,0.0,-0.03,-0.01,-1.01,1.03,0.0,-0.3,8.137,5.564,-19.8,9.0,10.0,10.0,11.0,27.0,29.0,19.0,16.0,0.0,0.0,0.0,0.0,0.0,320.0,1.0,0.0,0.0,0.0,0.0,0.0,22.505,False,
2026-12-03 10:54:01.787,0.0,-0.03,-0.01,-1.01,-2.07,0.36,-0.79,8.863,6.464,-19.8,9.0,10.0,10.0,11.0,27.0,42.0,19.0,15.0,0.0,0.0,0.0,0.0,0.0,320.0,1.0,0.0,0.0,0.0,0.0,0.0,23.256,False,
2026-12-03 10:54:02.085,0.0,-0.03,-0.01,-1.01,0.91,0.06,0.42,9.104,5.864,-19.5,9.0,10.0,10.0,10.0,27.0,42.0,19.0,15.0,0.0,0.0,0.0,0.0,0.0,320.0,1.0,0.0,0.0,0.0,0.0,0.0,23.554,False,
2026-12-03 10:54:02.586,0.0,-0.03,-0.01,-1.01,-2.01,0.42,1.03,7.653,6.164,-19.2,9.0,10.0,9.0,10.0,27.0,29.0,19.0,15.0,0.0,0.0,0.0,0.0,0.0,320.0,1.0,0.0,0.0,0.0,0.0,0.0,24.055,False,
2026-12-03 10:54:03.291,0.0,-0.03,-0.01,-1.01,0.73,-0.18,-0.97,8.137,6.164,-19.5,9.0,10.0,10.0,11.0,27.0,29.0,19.0,16.0,0.0,0.0,0.0,0.0,0.0,320.0,1.0,0.0,0.0,0.0,0.0,0.0,24.76,False,
2026-12-03 10:54:03.587,0.0,-0.03,-0.01,-1.01,-1.77,0.48,-0.12,8.378,6.464,-19.5,9.0,10.0,11.0,10.0,26.0,29.0,19.0,15.0,0.0,0.0,0.0,0.0,0.0,320.0,1.0,0.0,0.0,0.0,0.0,0.0,25.056,False,
2026-12-03 10:54:04.040,0.0,-0.03,-0.01,-1.01,0.12,0.06,0.61,8.621,6.164,-19.8,9.0,10.0,11.0,10.0,27.0,42.0,19.0,15.0,0.0,0.0,0.0,0.0,0.0,320.0,1.0,0.0,0.0,0.0,0.0,0.0,25.509,False,
2026-12-03 10:54:04.791,0.0,-0.03,-0.01,-1.01,-0.97,0.48,-0.06,8.863,6.164,-19.5,9.0,10.0,10.0,10.0,28.0,29.0,19.0,16.0,0.0,0.0,0.0,0.0,0.0,320.0,1.0,0.0,0.0,0.0,0.0,0.0,26.26,False,
2026-12-03 10:54:05.089,0.0,-0.03,-0.01,-1.01,-0.42,-0.18,-0.54,8.378,5.864,-19.8,9.0,10.0,11.0,11.0,27.0,29.0,19.0,16.0,0.0,0.0,0.0,0.0,0.0,320.0,1.0,0.0,0.0,0.0,0.0,0.0,26.558,False,
2026-12-03 10:54:05.541,0.0,-0.03,-0.01,-1.01,-0.36,0.48,0.42,7.653,6.764,-19.2,9.0,10.0,11.0,11.0,27.0,42.0,26.0,15.0,0.0,0.0,0.0,0.0,0.0,320.0,1.0,0.0,0.0,0.0,0.0,0.0,27.01,False,
2026-12-03 10:54:06.293,0.0,-0.03,-0.01,-1.01,-1.09,0.0,0.36,7.894,5.864,-20.1,9.0,10.0,10.0,11.0,27.0,42.0,19.0,15.0,0.0,0.0,0.0,0.0,0.0,320.0,1.0,0.0,0.0,0.0,0.0,0.0,27.762,False,
2026-12-03 10:54:06.591,0.0,-0.03,-0.01,-1.01,0.3,0.24,-0.54,8.621,5.864,-18.9,9.0,10.0,10.0,11.0,28.0,29.0,19.0,16.0,0.0,0.0,0.0,0.0,0.0,320.0,1.0,0.0,0.0,0.0,0.0,0.0,28.06,False,
2026-12-03 10:54:07.043,0.0,-0.03,-0.01,-1.01,-1.89,-0.06,-0.06,8.863,5.864,-19.2,9.0,10.0,10.0,11.0,27.0,29.0,19.0,16.0,0.0,0.0,0.0,0.0,0.0,320.0,1.0,0.0,0.0,0.0,0.0,0.0,28.512,False,
2026-12-03 10:54:07.795,0.0,-0.03,-0.01,-1.01,0.79,0.3,0.36,8.137,6.464,-18.3,9.0,10.0,10.0,10.0,26.0,29.0,19.0,15.0,0.0,0.0,0.0,0.0,0.0,320.0,1.0,0.0,0.0,0.0,0.0,0.0,29.264,False,
2026-12-03 10:54:08.098,0.0,-0.03,-0.01,-1.01,-2.01,-0.06,0.06,6.927,5.864,-19.8,9.0,10.0,9.0,10.0,27.0,42.0,19.0,15.0,0.0,0.0,0.0,0.0,0.0,320.0,1.0,0.0,0.0,0.0,0.0,0.0,29.567,False,
2026-12-03 10:54:08.598,0.0,-0.03,-0.01,-1.01,1.09,0.12,-0.42,8.863,5.864,-19.5,9.0,10.0,10.0,10.0,27.0,29.0,19.0,16.0,0.0,0.0,0.0,0.0,0.0,320.0,1.0,0.0,0.0,0.0,0.0,0.0,30.067,False,
2026-12-03 10:54:09.300,0.0,-0.03,-0.01,-1.01,-2.01,0.12,0.36,9.104,5.564,-19.5,9.0,10.0,10.0,11.0,27.0,29.0,19.0,16.0,0.0,0.0,0.0,0.0,0.0,320.0,1.0,0.0,0.0,0.0,0.0,0.0,30.769,False,
2026-12-03 10:54:09.649,0.0,-0.03,-0.01,-1.01,0.73,-0.06,0.18,8.621,7.064,-18.9,9.0,10.0,10.0,10.0,27.0,42.0,19.0,15.0,0.0,0.0,0.0,0.0,0.0,320.0,1.0,0.0,0.0,0.0,0.0,0.0,31.118,False,
2026-12-03 10:54:10.051,0.0,-0.03,-0.01,-1.01,-1.64,0.3,-0.3,8.863,6.164,-19.2,9.0,10.0,10.0,10.0,27.0,42.0,19.0,15.0,0.0,0.0,0.0,0.0,0.0,320.0,1.0,0.0,0.0,0.0,0.0,0.0,31.52,False,
2026-12-03 10:54:10.800,0.0,-0.03,-0.01,-1.01,0.36,-0.12,-0.12,7.653,6.164,-19.5,9.0,10.0,10.0,10.0,28.0,29.0,19.0,16.0,0.0,0.0,0.0,0.0,0.0,320.0,1.0,0.0,0.0,0.0,0.0,0.0,32.269,False,
2026-12-03 10:54:11.099,0.0,-0.03,-0.01,-1.01,-1.09,0.48,0.3,8.621,5.864,-19.2,9.0,10.0,10.0,10.0,27.0,29.0,26.0,15.0,0.0,0.0,0.0,0.0,0.0,320.0,1.0,0.0,0.0,0.0,0.0,0.0,32.568,False,
2026-12-03 10:54:11.551,0.0,-0.03,-0.01,-1.01,-0.36,-0.42,-0.06,8.137,6.164,-20.1,9.0,10.0,10.0,10.0,27.0,42.0,19.0,15.0,0.0,0.0,0.0,0.0,0.0,320.0,1.0,0.0,0.0,0.0,0.0,0.0,33.02,False,
2026-12-03 10:54:12.304,0.0,-0.03,-0.01,-1.01,-0.61,0.48,-0.12,7.41,6.164,-19.2,9.0,10.0,10.0,10.0,27.0,29.0,19.0,15.0,0.0,0.0,0.0,0.0,0.0,320.0,1.0,0.0,0.0,0.0,0.0,0.0,33.773,False,
2026-12-03 10:54:12.602,0.0,-0.03,-0.01,-1.01,-1.03,-0.42,0.3,7.894,5.864,-18.9,9.0,10.0,10.0,11.0,27.0,29.0,19.0,16.0,0.0,0.0,0.0,0.0,0.0,320.0,1.0,0.0,0.0,0.0,0.0,0.0,34.071,False,
2026-12-03 10:54:13.052,0.0,-0.03,-0.01,-1.01,0.12,0.54,0.06,8.621,7.064,-19.5,9.0,10.0,10.0,10.0,26.0,29.0,26.0,15.0,0.0,0.0,0.0,0.0,0.0,320.0,1.0,0.0,0.0,0.0,0.0,0.0,34.521,False,
2026-12-03 10:54:13.601,0.0,-0.03,-0.01,-1.01,-1.58,-0.36,-0.12,8.137,6.464,-19.5,9.0,10.0,11.0,10.0,27.0,42.0,19.0,15.0,0.0,0.0,0.0,0.0,0.0,320.0,1.0,0.0,0.0,0.0,0.0,0.0,35.07,False,
2026-12-03 10:54:14.052,0.0,-0.03,-0.01,-1.01,0.54,0.42,-0.12,7.894,5.564,-18.9,9.0,10.0,10.0,10.0,28.0,42.0,19.0,16.0,0.0,0.0,0.0,0.0,0.0,320.0,1.0,0.0,0.0,0.0,0.0,0.0,35.521,False,
2026-12-03 10:54:14.602,0.0,-0.03,-0.01,-1.01,-1.83,-0.36,0.3,7.653,5.864,-20.1,9.0,10.0,11.0,11.0,27.0,29.0,19.0,16.0,0.0,0.0,0.0,0.0,0.0,320.0,1.0,0.0,0.0,0.0,0.0,0.0,36.071,False,
2026-12-03 10:54:15.053,0.0,-0.03,-0.01,-1.01,0.67,0.3,-0.18,9.104,5.264,-19.5,9.0,10.0,11.0,11.0,27.0,42.0,26.0,15.0,0.0,0.0,0.0,0.0,0.0,320.0,1.0,0.0,0.0,0.0,0.0,0.0,36.522,False,
2026-12-03 10:54:15.804,0.0,-0.03,-0.01,-1.01,-1.95,-0.06,0.06,8.137,5.264,-19.8,9.0,10.0,10.0,10.0,27.0,42.0,19.0,15.0,0.0,0.0,0.0,0.0,0.0,320.0,1.0,0.0,0.0,0.0,0.0,0.0,37.273,False,
2026-12-03 10:54:16.106,0.0,-0.03,-0.01,-1.01,0.54,0.18,0.06,8.863,5.864,-19.2,9.0,10.0,10.0,10.0,28.0,29.0,19.0,15.0,0.0,0.0,0.0,0.0,0.0,320.0,1.0,0.0,0.0,0.0,0.0,0.0,37.575,False,
2026-12-03 10:54:16.556,0.0,-0.03,-0.01,-1.01,-1.7,0.06,0.12,7.41,6.464,-20.4,9.0,10.0,10.0,10.0,27.0,29.0,26.0,16.0,0.0,0.0,0.0,0.0,0.0,320.0,1.0,0.0,0.0,0.0,0.0,0.0,38.025,False,
2026-12-03 10:54:17.107,0.0,-0.03,-0.01,-1.01,0.3,-0.12,-0.24,7.653,6.764,-20.1,9.0,10.0,10.0,10.0,27.0,42.0,19.0,15.0,0.0,0.0,0.0,0.0,0.0,320.0,1.0,0.0,0.0,0.0,0.0,0.0,38.576,False,
2026-12-03 10:54:17.558,0.0,-0.03,-0.01,-1.01,-1.03,0.3,0.18,8.378,6.164,-18.9,9.0,10.0,10.0,10.0,27.0,42.0,19.0,15.0,0.0,0.0,0.0,0.0,0.0,320.0,1.0,0.0,0.0,0.0,0.0,0.0,39.027,False,
2026-12-03 10:54:18.110,0.0,-0.03,-0.01,-1.01,-0.24,-0.12,0.12,7.894,6.764,-19.5,9.0,10.0,10.0,10.0,28.0,29.0,19.0,15.0,0.0,0.0,0.0,0.0,0.0,320.0,1.0,0.0,0.0,0.0,0.0,0.0,39.579,False,
2026-12-03 10:54:18.612,0.0,-0.03,-0.01,-1.01,-0.61,0.61,-0.06,9.104,6.464,-19.2,9.0,10.0,10.0,10.0,26.0,29.0,19.0,16.0,0.0,0.0,0.0,0.0,0.0,320.0,1.0,0.0,0.0,0.0,0.0,0.0,40.081,False,
2026-12-03 10:54:19.113,0.0,-0.03,-0.01,-1.01,-0.97,-0.24,-0.12,8.621,6.464,-19.5,9.0,10.0,10.0,10.0,27.0,42.0,19.0,15.0,0.0,0.0,0.0,0.0,0.0,320.0,1.0,0.0,0.0,0.0,0.0,0.0,40.582,False,
2026-12-03 10:54:19.565,0.0,-0.03,-0.01,-1.01,-0.06,0.67,0.0,7.653,6.164,-19.2,9.0,10.0,10.0,10.0,27.0,29.0,19.0,15.0,0.0,0.0,0.0,0.0,0.0,320.0,1.0,0.0,0.0,0.0,0.0,0.0,41.034,False,
2026-12-03 10:54:20.115,0.0,-0.03,-0.01,-1.01,-1.46,-0.42,0.18,7.894,5.864,-19.5,9.0,10.0,10.0,10.0,27.0,29.0,19.0,16.0,0.0,0.0,0.0,0.0,0.0,320.0,1.0,0.0,0.0,0.0,0.0,0.0,41.584,False,
2026-12-03 10:54:20.565,0.0,-0.03,-0.01,-1.01,0.36,0.73,-0.24,8.863,6.164,-18.9,9.0,10.0,11.0,10.0,26.0,29.0,26.0,15.0,0.0,0.0,0.0,0.0,0.0,320.0,1.0,0.0,0.0,0.0,0.0,0.0,42.034,False,
2026-12-03 10:54:21.266,0.0,-0.03,-0.01,-1.01,-1.7,-0.54,0.3,8.137,6.164,-20.4,9.0,10.0,11.0,10.0,27.0,42.0,19.0,15.0,0.0,0.0,0.0,0.0,0.0,320.0,1.0,0.0,0.0,0.0,0.0,0.0,42.735,False,
2026-12-03 10:54:21.770,0.0,-0.03,-0.01,-1.01,0.67,0.54,-0.06,7.653,6.164,-19.8,9.0,10.0,11.0,11.0,28.0,42.0,19.0,15.0,0.0,0.0,0.0,0.0,0.0,320.0,1.0,0.0,0.0,0.0,0.0,0.0,43.239,False,
2026-12-03 10:54:22.069,0.0,-0.03,-0.01,-1.01,-1.77,-0.36,0.24,8.378,6.164,-19.5,9.0,10.0,11.0,11.0,27.0,29.0,19.0,16.0,0.0,0.0,0.0,0.0,0.0,320.0,1.0,0.0,0.0,0.0,0.0,0.0,43.538,False,
2026-12-03 10:54:22.571,0.0,-0.03,-0.01,-1.01,0.48,0.54,-0.24,9.104,5.864,-20.1,9.0,9.0,11.0,11.0,27.0,42.0,19.0,15.0,0.0,0.0,0.0,0.0,0.0,320.0,1.0,0.0,0.0,0.0,0.0,0.0,44.04,False,
2026-12-03 10:54:23.275,0.0,-0.03,-0.01,-1.01,-1.58,-0.24,0.0,9.104,6.464,-19.2,8.0,9.0,11.0,11.0,27.0,42.0,19.0,15.0,0.0,0.0,0.0,0.0,0.0,320.0,1.0,0.0,0.0,0.0,0.0,0.0,44.744,False,
2026-12-03 10:54:23.575,0.0,-0.03,-0.01,-1.01,0.18,0.3,-0.12,8.137,5.564,-19.2,6.0,7.0,11.0,11.0,28.0,29.0,19.0,15.0,0.0,0.0,0.0,0.0,0.0,320.0,1.0,0.0,0.0,0.0,0.0,0.0,45.044,False,
2026-12-03 10:54:24.075,0.0,-0.03,-0.01,-1.01,-1.15,0.06,0.12,8.137,5.564,-19.2,5.0,6.0,11.0,11.0,27.0,29.0,19.0,16.0,0.0,0.0,0.0,0.0,0.0,320.0,1.0,0.0,0.0,0.0,0.0,0.0,45.544,False,
2026-12-03 10:54:24.774,0.0,-0.03,-0.01,-1.0,-0.61,-1.15,0.18,8.137,6.764,-19.5,4.0,4.0,11.0,11.0,27.0,42.0,18.0,14.0,0.0,0.0,0.0,0.0,0.0,320.0,1.0,0.0,0.0,0.0,0.0,0.0,46.243,False,
2026-12-03 10:54:25.076,0.0,-0.03,0.0,-1.01,1.09,-0.12,4.69,7.169,5.864,-18.9,4.0,4.0,10.0,11.0,27.0,42.0,17.0,14.0,0.0,0.0,0.0,0.0,0.0,320.0,1.0,0.0,0.0,0.0,0.0,0.0,46.545,False,
2026-12-03 10:54:25.526,0.0,-0.03,0.0,-1.01,0.42,-0.61,14.34,5.475,6.464,-19.2,3.0,4.0,11.0,11.0,27.0,29.0,17.0,14.0,0.0,0.0,0.0,0.0,0.0,320.0,1.0,0.0,0.0,0.0,0.0,0.0,46.995,False,
2026-12-03 10:54:26.277,0.0,-0.03,0.0,-1.01,-1.34,1.28,13.79,1.602,5.864,-18.3,3.0,4.0,12.0,13.0,26.0,29.0,18.0,14.0,0.0,0.0,0.0,0.0,0.0,320.0,1.0,0.0,0.0,0.0,0.0,0.0,47.746,False,
2026-12-03 10:54:26.578,0.0,-0.03,-0.01,-1.01,-0.24,-0.06,14.89,-3.48,5.264,-16.8,3.0,4.0,14.0,15.0,25.0,28.0,17.0,13.0,0.0,0.0,0.0,0.0,0.0,320.0,1.0,0.0,0.0,0.0,0.0,0.0,48.047,False,
2026-12-03 10:54:27.030,0.0,-0.03,-0.01,-1.02,-0.12,0.36,16.84,-8.562,4.964,-17.1,4.0,5.0,10.0,12.0,24.0,25.0,16.0,14.0,0.0,0.0,0.0,0.0,0.0,320.0,1.0,0.0,0.0,0.0,0.0,0.0,48.499,False,
2026-12-03 10:54:27.780,0.0,-0.03,0.0,-1.01,0.67,-0.18,22.64,-12.918,2.864,-15.3,5.0,6.0,15.0,16.0,21.0,20.0,14.0,12.0,87.0,0.0,0.0,0.0,0.0,320.0,1.0,0.0,0.0,0.0,0.0,0.0,49.249,False,
2026-12-03 10:54:28.082,0.0,-0.03,0.0,-1.01,-0.3,0.54,16.17,-18.241,-0.136,-13.8,6.0,7.0,19.0,26.0,29.0,29.0,12.0,15.0,87.0,0.0,0.0,0.0,0.0,320.0,1.0,0.0,0.0,0.0,0.0,0.0,49.551,False,
2026-12-03 10:54:28.531,0.0,-0.03,0.0,-1.01,1.09,-0.67,26.97,-22.355,-3.436,-13.5,6.0,8.0,30.0,30.0,26.0,27.0,14.0,12.0,86.0,0.0,0.0,0.0,0.0,320.0,1.0,0.0,0.0,0.0,0.0,0.0,50.0,False,
2026-12-03 10:54:29.286,0.0,-0.03,0.0,-1.01,-3.6,1.95,4.63,-25.017,-5.236,-12.6,7.0,8.0,20.0,21.0,19.0,19.0,12.0,10.0,86.0,0.0,0.0,0.0,0.0,320.0,1.0,0.0,0.0,0.0,0.0,0.0,50.755,False,
2026-12-03 10:54:29.585,0.0,-0.03,0.0,-1.01,1.52,-1.46,-2.5,-24.534,-6.436,-12.9,8.0,8.0,21.0,22.0,18.0,18.0,11.0,10.0,86.0,0.0,0.0,0.0,0.0,320.0,1.0,0.0,0.0,0.0,0.0,0.0,51.054,False,
2026-12-03 10:54:30.036,0.0,-0.03,0.0,-1.01,-1.89,0.3,4.27,-24.291,-5.836,-12.9,8.0,8.0,22.0,22.0,18.0,18.0,11.0,10.0,86.0,0.0,0.0,0.0,0.0,320.0,1.0,0.0,0.0,0.0,0.0,0.0,51.505,False,
2026-12-03 10:54:30.784,0.0,-0.03,0.0,-1.01,-1.15,0.18,-4.21,-24.049,-6.736,-13.2,7.0,9.0,22.0,21.0,18.0,19.0,11.0,10.0,86.0,0.0,0.0,0.0,0.0,320.0,1.0,0.0,0.0,0.0,0.0,0.0,52.253,False,
2026-12-03 10:54:31.088,0.0,-0.03,0.0,-1.01,-1.7,0.85,5.85,-23.808,-5.836,-12.9,7.0,8.0,20.0,21.0,19.0,19.0,12.0,10.0,86.0,0.0,0.0,0.0,0.0,320.0,1.0,0.0,0.0,0.0,0.0,0.0,52.557,False,
2026-12-03 10:54:31.536,0.0,-0.03,0.0,-1.01,0.0,0.48,0.73,-24.775,-5.236,-12.9,7.0,8.0,21.0,22.0,18.0,19.0,12.0,10.0,86.0,0.0,0.0,0.0,0.0,320.0,1.0,0.0,0.0,0.0,0.0,0.0,53.005,False,
2026-12-03 10:54:32.291,0.0,-0.03,0.0,-1.01,0.73,-0.12,6.04,-24.534,-6.736,-13.2,7.0,9.0,22.0,22.0,18.0,19.0,11.0,9.0,86.0,0.0,0.0,0.0,0.0,320.0,1.0,0.0,0.0,0.0,0.0,0.0,53.76,False,
2026-12-03 10:54:32.590,0.0,-0.03,0.0,-1.01,-0.85,0.48,-1.4,-24.291,-6.736,-12.9,8.0,9.0,21.0,21.0,18.0,19.0,11.0,9.0,86.0,0.0,0.0,0.0,0.0,320.0,1.0,0.0,0.0,0.0,0.0,0.0,54.059,False,
2026-12-03 10:54:33.040,0.0,-0.03,0.0,-1.01,0.18,-0.91,-1.28,-23.808,-6.136,-12.6,8.0,8.0,21.0,22.0,18.0,18.0,11.0,10.0,86.0,0.0,0.0,0.0,0.0,320.0,1.0,0.0,0.0,0.0,0.0,0.0,54.509,False,
2026-12-03 10:54:33.793,0.0,-0.02,0.0,-1.01,-1.46,0.24,-5.43,-23.081,-5.536,-13.2,7.0,8.0,21.0,21.0,18.0,19.0,12.0,10.0,86.0,0.0,0.0,0.0,0.0,320.0,1.0,0.0,0.0,0.0,0.0,0.0,55.262,False,
2026-12-03 10:54:34.092,0.0,-0.03,0.0,-1.01,-1.15,-0.18,-16.29,-21.872,-2.836,-13.2,6.0,8.0,31.0,31.0,19.0,26.0,14.0,12.0,86.0,0.0,0.0,0.0,0.0,320.0,1.0,0.0,0.0,0.0,0.0,0.0,55.561,False,
2026-12-03 10:54:34.596,0.0,-0.02,0.0,-1.01,-2.01,-0.24,-15.62,-18.483,-0.136,-14.1,6.0,7.0,27.0,27.0,28.0,28.0,10.0,14.0,87.0,0.0,0.0,0.0,0.0,320.0,1.0,0.0,0.0,0.0,0.0,0.0,56.065,False,
2026-12-03 10:54:35.295,0.0,-0.02,0.0,-1.01,-1.95,0.18,-17.57,-15.338,1.664,-15.0,6.0,7.0,17.0,18.0,31.0,30.0,13.0,11.0,87.0,0.0,0.0,0.0,0.0,320.0,1.0,0.0,0.0,0.0,0.0,0.0,56.764,False,
2026-12-03 10:54:35.643,0.0,-0.02,0.0,-1.01,-2.5,-1.22,-15.93,-10.497,3.464,-15.3,5.0,6.0,14.0,15.0,21.0,22.0,15.0,13.0,87.0,0.0,0.0,0.0,0.0,320.0,1.0,0.0,0.0,0.0,0.0,0.0,57.112,False,
2026-12-03 10:54:36.097,0.0,-0.03,-0.01,-1.01,-0.3,1.28,-22.7,-5.174,5.564,-16.2,4.0,5.0,10.0,11.0,24.0,26.0,17.0,14.0,0.0,0.0,0.0,0.0,0.0,320.0,1.0,0.0,0.0,0.0,0.0,0.0,57.566,False,
2026-12-03 10:54:36.799,0.0,-0.03,-0.01,-1.01,-1.4,-0.67,-14.09,-0.575,6.164,-17.4,3.0,4.0,13.0,14.0,27.0,28.0,18.0,14.0,0.0,0.0,0.0,0.0,0.0,320.0,1.0,0.0,0.0,0.0,0.0,0.0,58.268,False,
2026-12-03 10:54:37.149,0.0,-0.03,-0.01,-1.01,-0.24,0.36,-0.73,1.36,6.464,-18.0,3.0,4.0,12.0,13.0,27.0,29.0,26.0,15.0,0.0,0.0,0.0,0.0,0.0,320.0,1.0,0.0,0.0,0.0,0.0,0.0,58.618,False,
2026-12-03 10:54:37.548,0.0,-0.03,-0.01,-1.01,-0.61,-0.97,3.47,-0.575,5.264,-17.4,3.0,4.0,13.0,14.0,26.0,28.0,26.0,15.0,0.0,0.0,0.0,0.0,0.0,320.0,1.0,0.0,0.0,0.0,0.0,0.0,59.017,False,
2026-12-03 10:54:38.302,0.0,-0.03,-0.01,-1.01,-1.09,-0.06,-33.38,6.684,6.464,-19.2,4.0,4.0,11.0,11.0,27.0,42.0,19.0,15.0,0.0,0.0,0.0,0.0,0.0,320.0,1.0,0.0,0.0,0.0,0.0,0.0,59.771,False,
2026-12-03 10:54:38.602,0.0,-0.03,-0.01,-1.01,-1.46,-0.73,-16.72,14.913,3.764,-19.5,6.0,7.0,9.0,9.0,26.0,27.0,18.0,16.0,0.0,0.0,0.0,0.0,0.0,320.0,1.0,0.0,0.0,0.0,0.0,0.0,60.071,False,
2026-12-03 10:54:39.054,0.0,-0.03,-0.01,-1.01,-0.48,0.18,-7.75,18.059,2.864,-21.9,7.0,8.0,8.0,9.0,24.0,25.0,26.0,18.0,0.0,0.0,0.0,0.0,0.0,320.0,1.0,0.0,0.0,0.0,0.0,0.0,60.523,False,
2026-12-03 10:54:39.808,0.0,-0.03,-0.01,-1.01,-1.64,-3.17,-21.6,21.931,0.764,-22.8,9.0,10.0,7.0,8.0,20.0,23.0,27.0,19.0,0.0,0.0,0.0,0.0,0.0,320.0,1.0,0.0,0.0,0.0,0.0,0.0,61.277,False,
2026-12-03 10:54:40.156,0.0,-0.03,-0.01,-1.01,-0.12,2.07,-16.78,26.77,-2.836,-24.3,11.0,13.0,6.0,7.0,29.0,31.0,30.0,27.0,0.0,0.0,0.0,0.0,0.0,320.0,1.0,0.0,0.0,0.0,0.0,0.0,61.625,False,
2026-12-03 10:54:40.557,0.0,-0.03,-0.01,-1.01,-4.39,-4.51,-18.12,30.158,-7.036,-25.2,13.0,10.0,6.0,6.0,18.0,26.0,21.0,30.0,0.0,0.0,0.0,0.0,0.0,320.0,1.0,0.0,0.0,0.0,0.0,0.0,62.026,False,
2026-12-03 10:54:41.310,0.0,-0.03,-0.02,-1.01,-0.48,28.68,-9.94,-32.231,-10.636,-24.9,15.0,12.0,5.0,5.0,14.0,16.0,26.0,22.0,0.0,0.0,0.0,0.0,0.0,320.0,1.0,0.0,0.0,0.0,0.0,0.0,62.779,True,A2_gyro_saturation
2026-12-03 10:54:41.609,0.0,-0.03,-0.01,-1.01,-0.85,28.68,-13.3,-32.474,-13.036,-26.1,10.0,13.0,5.0,5.0,12.0,14.0,28.0,24.0,0.0,0.0,0.0,0.0,0.0,320.0,1.0,0.0,0.0,0.0,0.0,0.0,63.078,True,A2_gyro_saturation
2026-12-03 10:54:42.113,0.0,-0.03,-0.01,-1.01,-1.46,28.68,-19.53,-30.78,-18.136,-26.4,11.0,14.0,4.0,4.0,15.0,10.0,28.0,26.0,315.0,0.0,0.0,0.0,0.0,320.0,1.0,0.0,0.0,0.0,0.0,0.0,63.582,True,A2_gyro_saturation
2026-12-03 10:54:42.614,0.0,-0.03,-0.01,-1.01,-4.27,28.68,-14.28,-30.78,-21.736,-26.4,11.0,13.0,3.0,3.0,14.0,15.0,29.0,28.0,315.0,0.0,0.0,0.0,0.0,320.0,1.0,0.0,0.0,0.0,0.0,0.0,64.083,True,A2_gyro_saturation
2026-12-03 10:54:43.065,0.0,-0.03,-0.01,-1.01,-0.24,28.68,-17.08,-29.811,-24.136,-26.1,12.0,13.0,3.0,3.0,12.0,13.0,43.0,28.0,315.0,0.0,0.0,0.0,0.0,320.0,1.0,0.0,0.0,0.0,0.0,0.0,64.534,True,A2_gyro_saturation
2026-12-03 10:54:43.614,0.0,-0.03,-0.01,-1.01,-3.17,28.68,2.74,-29.811,-25.036,-26.1,11.0,13.0,3.0,3.0,12.0,13.0,42.0,28.0,315.0,0.0,0.0,0.0,0.0,320.0,1.0,0.0,0.0,0.0,0.0,0.0,65.083,True,A2_gyro_saturation
2026-12-03 10:54:44.068,0.0,-0.03,-0.01,-1.01,2.38,28.68,-6.83,-29.57,-24.436,-26.4,12.0,14.0,3.0,3.0,13.0,13.0,42.0,29.0,315.0,0.0,0.0,0.0,0.0,320.0,1.0,0.0,0.0,0.0,0.0,0.0,65.537,True,A2_gyro_saturation
2026-12-03 10:54:44.519,0.0,-0.03,-0.01,-1.01,-2.68,28.68,-6.1,-29.811,-25.636,-26.7,11.0,13.0,4.0,3.0,12.0,13.0,42.0,29.0,315.0,0.0,0.0,0.0,0.0,320.0,1.0,0.0,0.0,0.0,0.0,0.0,65.988,True,A2_gyro_saturation
2026-12-03 10:54:45.269,0.0,-0.03,-0.02,-1.01,1.95,28.68,-0.91,-30.537,-22.936,-26.7,11.0,13.0,3.0,3.0,13.0,13.0,43.0,29.0,315.0,0.0,0.0,0.0,0.0,320.0,1.0,0.0,0.0,0.0,0.0,0.0,66.738,True,A2_gyro_saturation
2026-12-03 10:54:45.569,0.0,-0.03,-0.01,-1.02,-2.44,28.68,13.18,-29.086,-24.136,-25.5,11.0,13.0,3.0,3.0,13.0,13.0,42.0,27.0,315.0,0.0,0.0,0.0,0.0,320.0,1.0,0.0,0.0,0.0,0.0,0.0,67.038,True,A2_gyro_saturation
2026-12-03 10:54:46.019,0.0,-0.03,-0.01,-1.01,0.85,28.68,7.87,-30.78,-21.436,-25.8,12.0,13.0,3.0,3.0,14.0,14.0,29.0,28.0,315.0,0.0,0.0,0.0,0.0,320.0,1.0,0.0,0.0,0.0,0.0,0.0,67.488,True,A2_gyro_saturation
2026-12-03 10:54:46.771,0.0,-0.03,-0.01,-1.01,-0.42,28.68,13.67,-30.296,-17.536,-25.8,11.0,13.0,4.0,4.0,15.0,10.0,29.0,27.0,315.0,0.0,0.0,0.0,0.0,320.0,1.0,0.0,0.0,0.0,0.0,0.0,68.24,True,A2_gyro_saturation
2026-12-03 10:54:47.074,0.0,-0.03,-0.01,-1.01,-0.36,28.68,22.82,-31.747,-12.736,-25.2,10.0,13.0,5.0,5.0,12.0,15.0,27.0,23.0,0.0,0.0,0.0,0.0,0.0,320.0,1.0,0.0,0.0,0.0,0.0,0.0,68.543,True,A2_gyro_saturation
2026-12-03 10:54:47.524,0.0,-0.03,-0.01,-1.01,1.15,28.68,13.0,30.642,-8.836,-24.9,15.0,12.0,6.0,6.0,16.0,18.0,23.0,31.0,0.0,0.0,0.0,0.0,0.0,320.0,1.0,0.0,0.0,0.0,0.0,0.0,68.993,True,A2_gyro_saturation
2026-12-03 10:54:48.276,0.0,-0.02,-0.01,-1.01,-0.48,28.68,19.22,29.433,-4.636,-24.0,13.0,15.0,6.0,7.0,26.0,27.0,20.0,29.0,0.0,0.0,0.0,0.0,0.0,320.0,1.0,0.0,0.0,0.0,0.0,0.0,69.745,True,A2_gyro_saturation
2026-12-03 10:54:48.576,0.0,-0.03,-0.01,-1.01,0.18,28.68,24.78,24.35,-0.736,-22.5,10.0,12.0,7.0,8.0,31.0,20.0,28.0,26.0,0.0,0.0,0.0,0.0,0.0,320.0,1.0,0.0,0.0,0.0,0.0,0.0,70.045,True,A2_gyro_saturation
2026-12-03 10:54:49.075,0.0,-0.03,-0.01,-1.01,-1.22,28.68,18.79,19.268,2.264,-21.3,8.0,9.0,8.0,8.0,22.0,25.0,26.0,17.0,0.0,0.0,0.0,0.0,0.0,320.0,1.0,0.0,0.0,0.0,0.0,0.0,70.544,True,A2_gyro_saturation
2026-12-03 10:54:49.779,0.0,-0.02,-0.01,-1.01,-0.24,28.68,11.16,17.574,4.364,-21.9,6.0,7.0,8.0,9.0,25.0,27.0,19.0,17.0,0.0,0.0,0.0,0.0,0.0,320.0,1.0,0.0,0.0,0.0,0.0,0.0,71.248,True,A2_gyro_saturation
2026-12-03 10:54:50.081,0.0,-0.03,-0.01,-1.01,-0.61,28.68,-0.36,14.913,4.664,-21.0,6.0,7.0,9.0,9.0,25.0,27.0,19.0,17.0,0.0,0.0,0.0,0.0,0.0,320.0,1.0,0.0,0.0,0.0,0.0,0.0,71.55,True,A2_gyro_saturation
2026-12-03 10:54:50.579,0.0,-0.03,-0.01,-1.01,-0.42,28.68,0.42,15.396,4.064,-20.7,6.0,7.0,9.0,9.0,25.0,27.0,19.0,17.0,0.0,0.0,0.0,0.0,0.0,320.0,1.0,0.0,0.0,0.0,0.0,0.0,72.048,True,A2_gyro_saturation
2026-12-03 10:54:51.279,0.0,-0.03,-0.01,-1.01,-1.03,28.68,-7.69,17.333,3.764,-21.6,6.0,7.0,9.0,9.0,24.0,27.0,19.0,16.0,0.0,0.0,0.0,0.0,0.0,320.0,1.0,0.0,0.0,0.0,0.0,0.0,72.748,True,A2_gyro_saturation
2026-12-03 10:54:51.579,0.0,-0.03,-0.01,-1.01,-0.79,28.68,-1.7,18.3,3.464,-21.0,7.0,8.0,8.0,9.0,24.0,26.0,19.0,17.0,0.0,0.0,0.0,0.0,0.0,320.0,1.0,0.0,0.0,0.0,0.0,0.0,73.048,True,A2_gyro_saturation
2026-12-03 10:54:52.083,0.0,-0.03,-0.01,-1.01,-0.36,28.68,-1.52,17.574,3.464,-22.2,7.0,8.0,8.0,9.0,24.0,26.0,19.0,17.0,0.0,0.0,0.0,0.0,0.0,320.0,1.0,0.0,0.0,0.0,0.0,0.0,73.552,True,A2_gyro_saturation
2026-12-03 10:54:52.779,0.0,-0.03,-0.01,-1.01,-0.36,28.68,-0.54,18.784,3.164,-21.9,7.0,8.0,8.0,9.0,23.0,25.0,26.0,17.0,0.0,0.0,0.0,0.0,0.0,320.0,1.0,0.0,0.0,0.0,0.0,0.0,74.248,True,A2_gyro_saturation
2026-12-03 10:54:53.132,0.0,-0.03,-0.01,-1.01,-1.22,28.68,0.18,19.268,2.864,-21.6,7.0,8.0,8.0,8.0,23.0,26.0,19.0,17.0,0.0,0.0,0.0,0.0,0.0,320.0,1.0,0.0,0.0,0.0,0.0,0.0,74.601,True,A2_gyro_saturation
2026-12-03 10:54:53.532,0.0,-0.03,-0.01,-1.01,0.06,28.68,-0.18,18.059,2.564,-21.3,7.0,8.0,8.0,8.0,24.0,26.0,19.0,17.0,0.0,0.0,0.0,0.0,0.0,320.0,1.0,0.0,0.0,0.0,0.0,0.0,75.001,True,A2_gyro_saturation
2026-12-03 10:54:54.287,0.0,-0.02,-0.01,-1.01,-1.34,28.68,1.46,18.059,2.264,-21.9,7.0,8.0,8.0,9.0,24.0,25.0,19.0,17.0,0.0,0.0,0.0,0.0,0.0,320.0,1.0,0.0,0.0,0.0,0.0,0.0,75.756,True,A2_gyro_saturation
2026-12-03 10:54:54.588,0.0,-0.03,-0.01,-1.01,1.28,28.68,30.27,13.702,4.964,-21.3,6.0,7.0,9.0,9.0,25.0,27.0,19.0,16.0,0.0,0.0,0.0,0.0,0.0,320.0,1.0,0.0,0.0,0.0,0.0,0.0,76.057,True,A2_gyro_saturation
2026-12-03 10:54:55.089,0.0,-0.03,0.0,-1.01,-0.54,28.68,27.16,6.2,6.464,-19.5,4.0,5.0,11.0,11.0,27.0,42.0,19.0,15.0,0.0,0.0,0.0,0.0,0.0,320.0,1.0,0.0,0.0,0.0,0.0,0.0,76.558,True,A2_gyro_saturation
2026-12-03 10:54:55.790,0.0,-0.03,0.0,-1.01,1.03,28.68,17.27,0.393,6.464,-17.1,3.0,4.0,12.0,13.0,27.0,29.0,19.0,15.0,0.0,0.0,0.0,0.0,0.0,320.0,1.0,0.0,0.0,0.0,0.0,0.0,77.259,True,A2_gyro_saturation
2026-12-03 10:54:56.092,0.0,-0.03,0.0,-1.01,-1.28,28.68,24.96,-5.657,5.864,-16.2,4.0,4.0,14.0,10.0,25.0,26.0,19.0,16.0,0.0,0.0,0.0,0.0,0.0,320.0,1.0,0.0,0.0,0.0,0.0,0.0,77.561,True,A2_gyro_saturation
2026-12-03 10:54:56.543,0.0,-0.03,0.0,-1.01,-0.97,28.68,18.92,-12.433,2.564,-14.7,5.0,6.0,15.0,16.0,20.0,21.0,16.0,13.0,87.0,0.0,0.0,0.0,0.0,320.0,1.0,0.0,0.0,0.0,0.0,0.0,78.012,True,A2_gyro_saturation
2026-12-03 10:54:57.293,0.0,-0.03,0.0,-1.01,0.73,28.68,21.54,-18.967,-0.136,-13.2,6.0,7.0,26.0,27.0,28.0,28.0,11.0,10.0,87.0,0.0,0.0,0.0,0.0,320.0,1.0,0.0,0.0,0.0,0.0,0.0,78.762,True,A2_gyro_saturation
2026-12-03 10:54:57.594,0.0,-0.03,0.0,-1.01,-1.03,28.68,27.77,-22.84,-5.536,-12.3,7.0,8.0,20.0,21.0,19.0,19.0,13.0,12.0,86.0,0.0,0.0,0.0,0.0,320.0,1.0,0.0,0.0,0.0,0.0,0.0,79.063,True,A2_gyro_saturation
2026-12-03 10:54:58.045,0.0,-0.02,0.0,-1.01,0.61,28.68,20.62,-26.954,-10.036,-12.6,9.0,9.0,24.0,25.0,17.0,17.0,10.0,9.0,86.0,0.0,0.0,0.0,0.0,320.0,1.0,0.0,0.0,0.0,0.0,0.0,79.514,True,A2_gyro_saturation
2026-12-03 10:54:58.796,0.0,-0.02,0.0,-1.01,-0.3,28.68,21.6,-29.373,-14.236,-12.6,10.0,11.0,27.0,26.0,16.0,16.0,8.0,7.0,86.0,0.0,0.0,0.0,0.0,320.0,1.0,0.0,0.0,0.0,0.0,0.0,80.265,True,A2_gyro_saturation
2026-12-03 10:54:59.098,0.0,-0.02,0.0,-1.01,2.01,28.68,20.5,-29.616,-18.736,-12.6,12.0,12.0,27.0,27.0,17.0,16.0,6.0,5.0,86.0,0.0,0.0,0.0,0.0,320.0,1.0,0.0,0.0,0.0,0.0,0.0,80.567,True,A2_gyro_saturation
2026-12-03 10:54:59.548,0.0,-0.02,0.0,-1.01,-0.91,28.68,1.09,-30.099,-21.136,-12.0,12.0,13.0,26.0,28.0,17.0,15.0,5.0,5.0,86.0,0.0,0.0,0.0,0.0,320.0,1.0,0.0,0.0,0.0,0.0,0.0,81.017,True,A2_gyro_saturation
2026-12-03 10:55:00.298,0.0,-0.02,0.0,-1.01,-0.48,28.68,-0.67,-30.584,-21.436,-13.2,12.0,13.0,27.0,28.0,16.0,15.0,6.0,5.0,86.0,0.0,0.0,0.0,0.0,320.0,1.0,0.0,0.0,0.0,0.0,0.0,81.767,True,A2_gyro_saturation
2026-12-03 10:55:00.599,0.0,-0.02,0.0,-1.01,-1.22,28.68,-1.95,-31.31,-20.536,-12.3,12.0,13.0,27.0,27.0,17.0,16.0,6.0,5.0,86.0,0.0,0.0,0.0,0.0,320.0,1.0,0.0,0.0,0.0,0.0,0.0,82.068,True,A2_gyro_saturation
2026-12-03 10:55:01.051,0.0,-0.02,0.0,-1.01,-0.12,28.68,2.86,-31.31,-20.536,-11.4,12.0,13.0,26.0,27.0,17.0,16.0,6.0,5.0,86.0,0.0,0.0,0.0,0.0,320.0,1.0,0.0,0.0,0.0,0.0,0.0,82.52,True,A2_gyro_saturation
2026-12-03 10:55:01.803,0.0,-0.02,0.0,-1.01,-0.42,28.68,0.24,-30.584,-21.136,-13.2,12.0,13.0,27.0,28.0,17.0,15.0,6.0,5.0,86.0,0.0,0.0,0.0,0.0,320.0,1.0,0.0,0.0,0.0,0.0,0.0,83.272,True,A2_gyro_saturation
2026-12-03 10:55:02.102,0.0,-0.02,0.0,-1.01,-1.4,28.68,-0.67,-32.036,-20.836,-12.3,12.0,13.0,27.0,28.0,16.0,15.0,6.0,5.0,86.0,0.0,0.0,0.0,0.0,320.0,1.0,0.0,0.0,0.0,0.0,0.0,83.571,True,A2_gyro_saturation
2026-12-03 10:55:02.552,0.0,-0.02,0.0,-1.01,-0.36,28.68,0.73,-30.099,-22.036,-12.6,12.0,13.0,27.0,27.0,17.0,16.0,6.0,5.0,86.0,0.0,0.0,0.0,0.0,320.0,1.0,0.0,0.0,0.0,0.0,0.0,84.021,True,A2_gyro_saturation
2026-12-03 10:55:03.305,0.0,-0.02,0.0,-1.01,-0.24,28.68,-4.21,-30.342,-19.636,-12.0,12.0,13.0,26.0,28.0,17.0,15.0,6.0,5.0,86.0,0.0,0.0,0.0,0.0,320.0,1.0,0.0,0.0,0.0,0.0,0.0,84.774,True,A2_gyro_saturation
2026-12-03 10:55:03.654,0.0,-0.02,-0.01,-1.01,-0.54,28.68,0.67,-30.342,-20.536,-12.3,12.0,12.0,27.0,28.0,17.0,15.0,6.0,5.0,86.0,0.0,0.0,0.0,0.0,320.0,1.0,0.0,0.0,0.0,0.0,0.0,85.123,True,A2_gyro_saturation
2026-12-03 10:55:04.053,0.0,-0.02,0.0,-1.01,-0.18,28.68,-3.96,-30.825,-19.336,-12.3,11.0,12.0,27.0,28.0,16.0,16.0,6.0,5.0,86.0,0.0,0.0,0.0,0.0,320.0,1.0,0.0,0.0,0.0,0.0,0.0,85.522,True,A2_gyro_saturation
2026-12-03 10:55:04.804,0.0,-0.02,-0.01,-1.01,-0.61,28.68,0.85,-31.067,-18.436,-12.9,12.0,12.0,27.0,27.0,17.0,16.0,6.0,5.0,86.0,0.0,0.0,0.0,0.0,320.0,1.0,0.0,0.0,0.0,0.0,0.0,86.273,True,A2_gyro_saturation
2026-12-03 10:55:05.105,0.0,-0.02,0.0,-1.01,-0.24,28.68,-7.75,-31.067,-18.736,-12.3,12.0,12.0,26.0,28.0,17.0,16.0,6.0,5.0,86.0,0.0,0.0,0.0,0.0,320.0,1.0,0.0,0.0,0.0,0.0,0.0,86.574,True,A2_gyro_saturation
2026-12-03 10:55:05.553,0.0,-0.03,0.0,-1.01,-0.06,28.68,-20.01,-30.099,-15.136,-12.3,11.0,11.0,26.0,27.0,17.0,16.0,7.0,7.0,86.0,0.0,0.0,0.0,0.0,320.0,1.0,0.0,0.0,0.0,0.0,0.0,87.022,True,A2_gyro_saturation
2026-12-03 10:55:06.304,0.0,-0.02,-0.01,-1.01,0.36,28.68,-11.9,-28.163,-11.536,-12.6,9.0,10.0,26.0,25.0,17.0,17.0,9.0,8.0,86.0,0.0,0.0,0.0,0.0,320.0,1.0,0.0,0.0,0.0,0.0,0.0,87.773,True,A2_gyro_saturation
2026-12-03 10:55:06.606,0.0,-0.03,-0.01,-1.01,-0.24,28.68,-27.52,-25.017,-6.736,-12.9,8.0,9.0,22.0,22.0,18.0,19.0,12.0,11.0,86.0,0.0,0.0,0.0,0.0,320.0,1.0,0.0,0.0,0.0,0.0,0.0,88.075,True,A2_gyro_saturation
2026-12-03 10:55:07.058,0.0,-0.03,-0.01,-1.01,-2.38,28.68,-22.82,-18.726,-2.536,-14.7,7.0,8.0,29.0,30.0,27.0,27.0,10.0,15.0,86.0,0.0,0.0,0.0,0.0,320.0,1.0,0.0,0.0,0.0,0.0,0.0,88.527,True,A2_gyro_saturation
2026-12-03 10:55:07.812,0.0,-0.03,-0.01,-1.01,0.3,0.24,-17.57,-15.821,0.764,-13.8,6.0,7.0,18.0,19.0,30.0,30.0,14.0,12.0,87.0,0.0,0.0,0.0,0.0,320.0,1.0,0.0,0.0,0.0,0.0,0.0,89.281,False,
2026-12-03 10:55:08.162,0.0,-0.03,-0.01,-1.01,-2.92,0.12,-25.69,-9.53,4.364,-16.8,5.0,6.0,13.0,15.0,22.0,23.0,17.0,15.0,0.0,0.0,0.0,0.0,0.0,320.0,1.0,0.0,0.0,0.0,0.0,0.0,89.631,False,
2026-12-03 10:55:08.561,0.0,-0.03,-0.01,-1.01,1.28,-0.18,-32.71,-0.334,5.864,-17.7,4.0,4.0,14.0,15.0,26.0,28.0,26.0,15.0,0.0,0.0,0.0,0.0,0.0,320.0,1.0,0.0,0.0,0.0,0.0,0.0,90.03,False,
2026-12-03 10:55:09.113,0.0,-0.03,-0.01,-1.01,-2.86,0.42,-13.12,5.475,5.864,-18.3,4.0,4.0,12.0,12.0,27.0,29.0,26.0,15.0,0.0,0.0,0.0,0.0,0.0,320.0,1.0,0.0,0.0,0.0,0.0,0.0,90.582,False,
2026-12-03 10:55:09.566,0.0,-0.03,-0.01,-1.01,-0.48,-0.12,-23.74,8.378,5.864,-20.7,4.0,5.0,11.0,11.0,27.0,29.0,19.0,16.0,0.0,0.0,0.0,0.0,0.0,320.0,1.0,0.0,0.0,0.0,0.0,0.0,91.035,False,
2026-12-03 10:55:10.115,0.0,-0.03,-0.02,-1.01,0.42,-0.67,3.29,14.186,4.964,-20.4,5.0,7.0,9.0,9.0,25.0,28.0,19.0,16.0,0.0,0.0,0.0,0.0,0.0,320.0,1.0,0.0,0.0,0.0,0.0,0.0,91.584,False,
2026-12-03 10:55:10.618,0.0,-0.03,-0.01,-1.01,-1.22,1.7,0.67,14.429,4.364,-21.3,6.0,6.0,9.0,9.0,26.0,29.0,19.0,16.0,0.0,0.0,0.0,0.0,0.0,320.0,1.0,0.0,0.0,0.0,0.0,0.0,92.087,False,
2026-12-03 10:55:11.315,0.0,-0.03,-0.01,-1.01,0.24,-2.25,-0.67,16.364,4.064,-21.0,6.0,7.0,9.0,9.0,25.0,27.0,19.0,17.0,0.0,0.0,0.0,0.0,0.0,320.0,1.0,0.0,0.0,0.0,0.0,0.0,92.784,False,
2026-12-03 10:55:11.666,0.0,-0.02,-0.02,-1.01,-1.95,1.77,9.76,13.461,4.364,-21.9,6.0,6.0,9.0,9.0,25.0,28.0,19.0,16.0,0.0,0.0,0.0,0.0,0.0,320.0,1.0,0.0,0.0,0.0,0.0,0.0,93.135,False,
2026-12-03 10:55:12.069,0.0,-0.02,-0.02,-1.01,2.38,-1.95,-4.02,15.639,5.564,-21.3,6.0,7.0,9.0,9.0,25.0,28.0,19.0,16.0,0.0,0.0,0.0,0.0,0.0,320.0,1.0,0.0,0.0,0.0,0.0,0.0,93.538,False,
2026-12-03 10:55:12.820,0.0,-0.03,-0.01,-1.01,-1.89,3.05,7.69,14.913,4.664,-21.3,6.0,7.0,9.0,9.0,26.0,28.0,19.0,16.0,0.0,0.0,0.0,0.0,0.0,320.0,1.0,0.0,0.0,0.0,0.0,0.0,94.289,False,
2026-12-03 10:55:13.122,0.0,-0.03,-0.01,-1.01,1.7,-1.95,-3.6,13.219,4.664,-20.7,6.0,6.0,9.0,10.0,26.0,28.0,19.0,16.0,0.0,0.0,0.0,0.0,0.0,320.0,1.0,0.0,0.0,0.0,0.0,0.0,94.591,False,
2026-12-03 10:55:13.572,0.0,-0.03,-0.01,-1.01,-2.01,2.38,2.31,14.913,4.964,-21.0,6.0,7.0,9.0,9.0,25.0,28.0,19.0,16.0,0.0,0.0,0.0,0.0,0.0,320.0,1.0,0.0,0.0,0.0,0.0,0.0,95.041,False,
2026-12-03 10:55:14.073,0.0,-0.02,-0.01,-1.01,0.48,-1.89,-0.42,13.945,4.964,-20.7,5.0,6.0,9.0,9.0,26.0,29.0,19.0,16.0,0.0,0.0,0.0,0.0,0.0,320.0,1.0,0.0,0.0,0.0,0.0,0.0,95.542,False,
2026-12-03 10:55:14.776,0.0,-0.03,-0.02,-1.01,-1.83,2.62,-13.36,17.817,4.364,-21.9,6.0,7.0,8.0,9.0,25.0,27.0,18.0,16.0,0.0,0.0,0.0,0.0,0.0,320.0,1.0,0.0,0.0,0.0,0.0,0.0,96.245,False,
2026-12-03 10:55:15.077,0.0,-0.03,0.0,-1.01,0.97,-0.97,-18.12,23.141,0.764,-22.8,8.0,9.0,7.0,8.0,21.0,22.0,27.0,19.0,0.0,0.0,0.0,0.0,0.0,320.0,1.0,0.0,0.0,0.0,0.0,0.0,96.546,False,
2026-12-03 10:55:15.576,0.0,-0.02,-0.01,-1.01,-4.57,-0.42,-42.48,28.223,-4.036,-22.8,11.0,13.0,7.0,8.0,27.0,29.0,30.0,27.0,0.0,0.0,0.0,0.0,0.0,320.0,1.0,0.0,0.0,0.0,0.0,0.0,97.045,False,
2026-12-03 10:55:16.276,0.0,-0.02,-0.01,-1.01,-0.18,1.52,-22.33,-32.231,-10.936,-24.6,15.0,12.0,6.0,6.0,15.0,17.0,24.0,20.0,0.0,0.0,0.0,0.0,0.0,320.0,1.0,0.0,0.0,0.0,0.0,0.0,97.745,False,
2026-12-03 10:55:16.575,0.0,-0.02,-0.01,-1.01,0.06,-1.89,-36.56,-29.086,-19.636,-25.5,12.0,14.0,4.0,4.0,14.0,10.0,27.0,26.0,315.0,0.0,0.0,0.0,0.0,320.0,1.0,0.0,0.0,0.0,0.0,0.0,98.044,False,
2026-12-03 10:55:17.027,0.0,-0.02,-0.01,-1.01,-1.83,0.0,-35.27,-28.843,-28.036,-25.5,13.0,15.0,4.0,4.0,12.0,11.0,29.0,28.0,315.0,0.0,0.0,0.0,0.0,320.0,1.0,0.0,0.0,0.0,0.0,0.0,98.496,False,
2026-12-03 10:55:17.780,0.0,-0.01,-0.01,-1.01,1.03,-1.52,-43.7,-32.231,28.2,-24.6,13.0,17.0,8.0,7.0,9.0,9.0,27.0,25.0,315.0,0.0,0.0,0.0,0.0,320.0,1.0,0.0,0.0,0.0,0.0,0.0,99.249,False,
2026-12-03 10:55:18.082,0.0,-0.02,-0.01,-1.01,-0.36,1.58,-25.14,28.707,21.0,-24.3,15.0,19.0,12.0,11.0,7.0,8.0,22.0,31.0,315.0,0.0,0.0,0.0,0.0,320.0,1.0,0.0,0.0,0.0,0.0,0.0,99.551,False,
2026-12-03 10:55:18.529,0.0,-0.02,-0.01,-1.01,-0.73,-1.03,-29.47,22.172,14.7,-22.5,26.0,30.0,12.0,11.0,6.0,7.0,19.0,18.0,44.0,0.0,0.0,0.0,0.0,320.0,1.0,0.0,0.0,0.0,0.0,0.0,99.998,False,
2026-12-03 10:55:19.281,0.0,-0.02,-0.01,-1.01,3.54,1.58,-42.72,11.041,11.1,-21.9,30.0,25.0,16.0,15.0,5.0,6.0,11.0,12.0,316.0,0.0,0.0,0.0,0.0,320.0,1.0,0.0,0.0,0.0,0.0,0.0,100.75,False,
2026-12-03 10:55:19.630,0.0,-0.02,0.0,-1.01,-2.38,-2.62,-24.84,2.571,8.4,-19.2,20.0,28.0,17.0,14.0,5.0,5.0,13.0,13.0,316.0,0.0,0.0,0.0,0.0,320.0,1.0,0.0,0.0,0.0,0.0,0.0,101.099,False,
2026-12-03 10:55:20.033,0.0,-0.02,-0.01,-1.01,-0.73,1.34,-20.87,-6.868,10.2,-17.4,22.0,42.0,16.0,15.0,7.0,7.0,11.0,10.0,316.0,0.0,0.0,0.0,0.0,320.0,1.0,0.0,0.0,0.0,0.0,0.0,101.502,False,
2026-12-03 10:55:20.785,0.0,-0.02,-0.01,-1.01,-1.89,0.06,-7.56,-10.739,10.8,-17.1,22.0,28.0,16.0,16.0,9.0,9.0,10.0,9.0,316.0,0.0,0.0,0.0,0.0,320.0,1.0,0.0,0.0,0.0,0.0,0.0,102.254,False,
2026-12-03 10:55:21.084,0.0,-0.02,-0.01,-1.01,0.0,-0.24,4.82,-8.803,11.4,-16.8,21.0,27.0,17.0,16.0,9.0,8.0,10.0,10.0,316.0,0.0,0.0,0.0,0.0,320.0,1.0,0.0,0.0,0.0,0.0,0.0,102.553,False,
2026-12-03 10:55:21.535,0.0,-0.02,-0.01,-1.01,-1.46,0.67,-4.27,-11.224,11.1,-16.8,21.0,28.0,17.0,16.0,9.0,9.0,10.0,9.0,316.0,0.0,0.0,0.0,0.0,320.0,1.0,0.0,0.0,0.0,0.0,0.0,103.004,False,
2026-12-03 10:55:22.286,0.0,-0.02,-0.01,-1.01,0.42,0.0,3.41,-10.013,12.0,-16.8,22.0,29.0,17.0,16.0,9.0,9.0,10.0,9.0,316.0,0.0,0.0,0.0,0.0,320.0,1.0,0.0,0.0,0.0,0.0,0.0,103.755,False,
2026-12-03 10:55:22.589,0.0,-0.02,0.0,-1.01,-1.09,0.97,-0.97,-11.707,10.8,-16.8,22.0,28.0,17.0,16.0,9.0,9.0,10.0,9.0,316.0,0.0,0.0,0.0,0.0,320.0,1.0,0.0,0.0,0.0,0.0,0.0,104.058,False,
2026-12-03 10:55:23.038,0.0,-0.02,-0.01,-1.01,0.36,-0.54,2.38,-11.224,11.7,-17.4,21.0,28.0,17.0,16.0,8.0,9.0,10.0,9.0,316.0,0.0,0.0,0.0,0.0,320.0,1.0,0.0,0.0,0.0,0.0,0.0,104.507,False,
2026-12-03 10:55:23.790,0.0,-0.02,0.0,-1.01,-1.46,0.36,-4.39,-10.739,11.1,-17.1,21.0,28.0,17.0,16.0,9.0,9.0,10.0,9.0,316.0,0.0,0.0,0.0,0.0,320.0,1.0,0.0,0.0,0.0,0.0,0.0,105.259,False,
2026-12-03 10:55:24.092,0.0,-0.02,0.0,-1.01,0.85,0.3,3.47,-10.739,11.4,-16.5,22.0,28.0,16.0,16.0,8.0,9.0,9.0,9.0,316.0,0.0,0.0,0.0,0.0,320.0,1.0,0.0,0.0,0.0,0.0,0.0,105.561,False,
2026-12-03 10:55:24.592,0.0,-0.02,0.0,-1.01,-0.79,0.67,-2.31,-10.739,11.7,-18.0,22.0,27.0,17.0,16.0,8.0,8.0,9.0,9.0,316.0,0.0,0.0,0.0,0.0,320.0,1.0,0.0,0.0,0.0,0.0,0.0,106.061,False,
2026-12-03 10:55:25.293,0.0,-0.02,0.0,-1.01,-1.22,1.03,3.23,-12.918,12.0,-15.6,21.0,27.0,17.0,16.0,8.0,8.0,9.0,9.0,316.0,0.0,0.0,0.0,0.0,320.0,1.0,0.0,0.0,0.0,0.0,0.0,106.762,False,
2026-12-03 10:55:25.596,0.0,-0.02,0.0,-1.01,-2.56,1.15,16.9,-10.013,11.4,-16.8,21.0,28.0,17.0,16.0,7.0,8.0,10.0,9.0,316.0,0.0,0.0,0.0,0.0,320.0,1.0,0.0,0.0,0.0,0.0,0.0,107.065,False,
2026-12-03 10:55:26.046,0.0,-0.02,0.0,-1.01,0.12,1.7,23.31,-4.448,9.3,-17.7,22.0,29.0,16.0,15.0,6.0,6.0,10.0,10.0,316.0,0.0,0.0,0.0,0.0,320.0,1.0,0.0,0.0,0.0,0.0,0.0,107.515,False,
2026-12-03 10:55:26.799,0.0,-0.03,-0.01,-1.01,-0.18,-0.79,23.19,1.845,8.7,-19.2,21.0,28.0,17.0,14.0,5.0,5.0,12.0,12.0,316.0,0.0,0.0,0.0,0.0,320.0,1.0,0.0,0.0,0.0,0.0,0.0,108.268,False,
2026-12-03 10:55:27.149,0.0,-0.03,-0.01,-1.01,3.11,1.7,12.08,9.104,9.0,-20.1,31.0,27.0,17.0,14.0,4.0,5.0,15.0,15.0,316.0,0.0,0.0,0.0,0.0,320.0,1.0,0.0,0.0,0.0,0.0,0.0,108.618,False,
2026-12-03 10:55:27.599,0.0,-0.03,-0.01,-1.01,-1.22,-1.83,8.66,11.041,10.2,-20.4,30.0,26.0,16.0,14.0,5.0,5.0,11.0,11.0,316.0,0.0,0.0,0.0,0.0,320.0,1.0,0.0,0.0,0.0,0.0,0.0,109.068,False,
2026-12-03 10:55:28.299,0.0,-0.03,-0.01,-1.01,-0.06,2.56,13.54,16.364,11.7,-22.5,29.0,23.0,14.0,14.0,6.0,6.0,13.0,13.0,316.0,0.0,0.0,0.0,0.0,320.0,1.0,0.0,0.0,0.0,0.0,0.0,109.768,False,
2026-12-03 10:55:28.651,0.0,-0.03,-0.01,-1.01,-7.08,-2.99,48.21,26.77,18.3,-25.2,17.0,28.0,14.0,14.0,7.0,7.0,31.0,29.0,315.0,0.0,0.0,0.0,0.0,320.0,1.0,0.0,0.0,0.0,0.0,0.0,110.12,False,
2026-12-03 10:55:29.049,0.0,-0.03,-0.01,-1.01,1.15,2.92,43.15,-30.296,27.6,-25.5,13.0,17.0,8.0,8.0,9.0,9.0,27.0,24.0,315.0,0.0,0.0,0.0,0.0,320.0,1.0,0.0,0.0,0.0,0.0,0.0,110.518,False,
2026-12-03 10:55:29.803,0.0,-0.02,-0.01,-1.01,0.73,-1.15,40.28,-29.811,-28.636,-26.1,14.0,15.0,5.0,5.0,11.0,11.0,42.0,28.0,315.0,0.0,0.0,0.0,0.0,320.0,1.0,0.0,0.0,0.0,0.0,0.0,111.272,False,
2026-12-03 10:55:30.102,0.0,-0.02,-0.01,-1.01,-1.52,1.46,27.03,-30.537,-19.336,-24.3,14.0,15.0,5.0,4.0,15.0,10.0,27.0,26.0,315.0,0.0,0.0,0.0,0.0,320.0,1.0,0.0,0.0,0.0,0.0,0.0,111.571,False,
2026-12-03 10:55:30.555,0.0,-0.02,-0.01,-1.01,1.15,-0.73,47.54,29.674,-7.636,-24.6,10.0,12.0,4.0,5.0,17.0,19.0,23.0,31.0,0.0,0.0,0.0,0.0,0.0,320.0,1.0,0.0,0.0,0.0,0.0,0.0,112.024,False,
2026-12-03 10:55:31.307,0.0,-0.02,-0.01,-1.01,-1.46,3.05,24.16,23.866,0.764,-23.1,10.0,12.0,4.0,5.0,20.0,23.0,27.0,18.0,0.0,0.0,0.0,0.0,0.0,320.0,1.0,0.0,0.0,0.0,0.0,0.0,112.776,False,
2026-12-03 10:55:31.606,0.0,-0.03,-0.01,-1.01,4.45,-1.15,25.87,15.88,3.764,-21.0,7.0,8.0,5.0,4.0,26.0,28.0,19.0,17.0,0.0,0.0,0.0,0.0,0.0,320.0,1.0,0.0,0.0,0.0,0.0,0.0,113.075,False,
2026-12-03 10:55:32.056,0.0,-0.03,-0.01,-1.01,-1.89,0.36,36.49,5.475,6.164,-19.8,4.0,4.0,10.0,6.0,28.0,42.0,19.0,15.0,0.0,0.0,0.0,0.0,0.0,320.0,1.0,0.0,0.0,0.0,0.0,0.0,113.525,False,
2026-12-03 10:55:32.812,0.0,-0.03,-0.01,-1.01,1.4,-2.74,-51.81,13.945,5.264,-20.4,5.0,6.0,7.0,5.0,26.0,28.0,19.0,16.0,0.0,0.0,0.0,0.0,0.0,320.0,1.0,0.0,0.0,0.0,0.0,0.0,114.281,False,
2026-12-03 10:55:33.108,0.0,-0.03,-0.01,-1.01,-0.91,1.95,-4.39,20.962,0.764,-23.1,9.0,10.0,4.0,5.0,22.0,25.0,26.0,18.0,0.0,0.0,0.0,0.0,0.0,320.0,1.0,0.0,0.0,0.0,0.0,0.0,114.577,False,
2026-12-03 10:55:33.562,0.0,-0.03,-0.01,-1.01,1.4,-0.48,19.16,19.994,1.664,-21.3,9.0,10.0,4.0,5.0,22.0,24.0,26.0,18.0,0.0,0.0,0.0,0.0,0.0,320.0,1.0,0.0,0.0,0.0,0.0,0.0,115.031,False,
2026-12-03 10:55:34.110,0.0,-0.03,0.0,-1.01,-0.18,2.92,102.17,-2.028,6.464,-15.6,4.0,4.0,12.0,6.0,26.0,27.0,19.0,15.0,0.0,0.0,0.0,0.0,0.0,320.0,1.0,0.0,0.0,0.0,0.0,0.0,115.579,False,
2026-12-03 10:55:34.564,0.0,-0.03,0.0,-1.01,-6.04,-2.13,-62.8,-1.301,6.164,-18.6,4.0,4.0,14.0,12.0,26.0,29.0,26.0,16.0,0.0,0.0,0.0,0.0,0.0,320.0,1.0,0.0,0.0,0.0,0.0,0.0,116.033,False,
2026-12-03 10:55:35.112,0.0,-0.03,-0.01,-1.01,0.73,-2.31,-34.11,11.767,4.964,-18.6,6.0,6.0,10.0,5.0,26.0,28.0,18.0,15.0,0.0,0.0,0.0,0.0,0.0,320.0,1.0,0.0,0.0,0.0,0.0,0.0,116.581,False,
2026-12-03 10:55:35.615,0.0,-0.03,-0.01,-1.01,-4.45,5.06,4.51,12.976,4.964,-20.7,6.0,7.0,9.0,6.0,26.0,28.0,19.0,16.0,0.0,0.0,0.0,0.0,0.0,320.0,1.0,0.0,0.0,0.0,0.0,0.0,117.084,False,
2026-12-03 10:55:36.315,0.0,-0.03,-0.01,-1.01,4.15,-5.12,-4.08,13.702,4.364,-20.4,6.0,7.0,9.0,9.0,25.0,27.0,18.0,16.0,0.0,0.0,0.0,0.0,0.0,320.0,1.0,0.0,0.0,0.0,0.0,0.0,117.784,False,
2026-12-03 10:55:36.615,0.0,-0.03,-0.01,-1.01,-5.37,5.85,-4.21,15.396,3.764,-21.3,7.0,8.0,9.0,9.0,25.0,27.0,19.0,16.0,0.0,0.0,0.0,0.0,0.0,320.0,1.0,0.0,0.0,0.0,0.0,0.0,118.084,False,
2026-12-03 10:55:37.068,0.0,-0.03,-0.01,-1.01,3.23,-5.79,-2.44,15.155,4.364,-21.6,9.0,10.0,9.0,9.0,25.0,27.0,19.0,16.0,0.0,0.0,0.0,0.0,0.0,320.0,1.0,0.0,0.0,0.0,0.0,0.0,118.537,False,
2026-12-03 10:55:37.618,0.0,-0.03,-0.01,-1.01,-3.9,5.67,0.67,16.849,3.764,-21.3,10.0,11.0,9.0,10.0,25.0,27.0,19.0,17.0,0.0,0.0,0.0,0.0,0.0,320.0,1.0,0.0,0.0,0.0,0.0,0.0,119.087,False,
2026-12-03 10:55:38.072,0.0,-0.03,-0.01,-1.01,1.64,-5.73,-0.79,15.396,3.464,-21.3,11.0,12.0,9.0,10.0,25.0,27.0,26.0,17.0,0.0,0.0,0.0,0.0,0.0,320.0,1.0,0.0,0.0,0.0,0.0,0.0,119.541,False,
2026-12-03 10:55:38.620,0.0,-0.03,-0.01,-1.01,-1.83,4.82,0.24,17.333,3.764,-20.7,11.0,13.0,9.0,10.0,24.0,27.0,19.0,17.0,0.0,0.0,0.0,0.0,0.0,320.0,1.0,0.0,0.0,0.0,0.0,0.0,120.089,False,
2026-12-03 10:55:39.124,0.0,-0.03,-0.01,-1.01,0.3,-4.02,-0.97,16.607,4.064,-21.9,12.0,13.0,9.0,10.0,26.0,28.0,26.0,17.0,0.0,0.0,0.0,0.0,0.0,320.0,1.0,0.0,0.0,0.0,0.0,0.0,120.593,False,
2026-12-03 10:55:39.619,0.0,-0.03,-0.01,-1.01,-0.97,3.05,0.06,17.333,3.164,-19.8,12.0,13.0,9.0,9.0,25.0,27.0,19.0,17.0,0.0,0.0,0.0,0.0,0.0,320.0,1.0,0.0,0.0,0.0,0.0,0.0,121.088,False,
2026-12-03 10:55:40.071,0.0,-0.03,-0.01,-1.01,-1.03,-1.89,-0.3,16.364,3.164,-22.2,12.0,13.0,9.0,10.0,25.0,27.0,26.0,18.0,0.0,0.0,0.0,0.0,0.0,320.0,1.0,0.0,0.0,0.0,0.0,0.0,121.54,False,
2026-12-03 10:55:40.620,0.0,-0.03,-0.01,-1.01,0.67,0.79,-0.3,16.849,3.464,-20.1,12.0,13.0,9.0,9.0,24.0,27.0,19.0,16.0,0.0,0.0,0.0,0.0,0.0,320.0,1.0,0.0,0.0,0.0,0.0,0.0,122.089,False,
2026-12-03 10:55:41.073,0.0,-0.03,-0.01,-1.01,-2.62,0.48,0.18,16.364,3.464,-22.2,12.0,13.0,9.0,10.0,25.0,28.0,26.0,17.0,0.0,0.0,0.0,0.0,0.0,320.0,1.0,0.0,0.0,0.0,0.0,0.0,122.542,False,
2026-12-03 10:55:41.622,0.0,-0.03,-0.01,-1.01,2.38,-1.28,-0.73,17.817,4.064,-20.1,12.0,12.0,9.0,10.0,25.0,27.0,19.0,17.0,0.0,0.0,0.0,0.0,0.0,320.0,1.0,0.0,0.0,0.0,0.0,0.0,123.091,False,
2026-12-03 10:55:42.075,0.0,-0.03,-0.01,-1.01,-3.9,2.56,0.48,16.607,3.164,-21.9,11.0,12.0,9.0,10.0,25.0,27.0,26.0,18.0,0.0,0.0,0.0,0.0,0.0,320.0,1.0,0.0,0.0,0.0,0.0,0.0,123.544,False,
2026-12-03 10:55:42.574,0.0,-0.03,-0.01,-1.01,2.99,-3.11,-0.79,18.059,3.164,-20.4,10.0,12.0,9.0,9.0,24.0,27.0,19.0,16.0,0.0,0.0,0.0,0.0,0.0,320.0,1.0,0.0,0.0,0.0,0.0,0.0,124.043,False,
2026-12-03 10:55:43.076,0.0,-0.03,-0.01,-1.01,-3.96,3.96,0.61,17.333,3.464,-21.3,7.0,8.0,9.0,9.0,25.0,27.0,19.0,17.0,0.0,0.0,0.0,0.0,0.0,320.0,1.0,0.0,0.0,0.0,0.0,0.0,124.545,False,
2026-12-03 10:55:43.578,0.0,-0.03,-0.01,-1.01,2.5,-4.15,-0.67,16.123,2.564,-20.7,7.0,8.0,9.0,9.0,25.0,27.0,19.0,17.0,0.0,0.0,0.0,0.0,0.0,320.0,1.0,0.0,0.0,0.0,0.0,0.0,125.047,False,
2026-12-03 10:55:44.280,0.0,-0.03,-0.01,-1.01,-3.17,4.69,0.54,17.333,2.264,-20.4,8.0,9.0,9.0,9.0,24.0,26.0,26.0,17.0,0.0,0.0,0.0,0.0,0.0,320.0,1.0,0.0,0.0,0.0,0.0,0.0,125.749,False,
2026-12-03 10:55:44.581,0.0,-0.03,-0.01,-1.01,1.34,-4.51,-0.73,17.574,3.464,-21.6,5.0,5.0,9.0,9.0,25.0,27.0,19.0,16.0,0.0,0.0,0.0,0.0,0.0,320.0,1.0,0.0,0.0,0.0,0.0,0.0,126.05,False,
2026-12-03 10:55:45.331,0.0,-0.03,0.0,-1.03,-11.04,11.1,-2.92,17.574,3.464,-21.9,3.0,3.0,9.0,9.0,25.0,27.0,7.0,9.0,87.0,0.0,0.0,0.0,0.0,320.0,1.0,0.0,0.0,0.0,0.0,0.0,126.8,False,
2026-12-03 10:55:45.681,0.0,-0.03,0.0,-1.01,10.07,-3.84,4.45,16.849,3.464,-20.7,3.0,2.0,9.0,9.0,25.0,27.0,7.0,3.0,87.0,1.0,0.0,0.0,0.0,320.0,1.0,0.0,0.0,0.0,0.0,0.0,127.15,False,
2026-12-03 10:55:46.282,0.0,-0.03,-0.01,-1.01,-9.33,7.08,13.54,14.429,4.364,-21.0,3.0,2.0,10.0,10.0,25.0,28.0,14.0,6.0,0.0,0.0,0.0,0.0,0.0,320.0,1.0,0.0,0.0,0.0,0.0,0.0,127.751,False,
2026-12-03 10:55:46.583,0.0,-0.09,0.0,-1.01,19.71,14.22,-8.85,10.557,4.664,-19.5,2.0,2.0,11.0,10.0,26.0,42.0,14.0,12.0,0.0,-1.0,0.0,0.0,0.0,320.0,1.0,0.0,0.0,0.0,0.0,0.0,128.052,False,
2026-12-03 10:55:47.032,0.0,-0.08,0.06,-1.02,4.57,-6.95,-2.25,13.945,3.464,-17.4,2.0,2.0,10.0,10.0,22.0,25.0,19.0,14.0,0.0,0.0,0.0,0.0,0.0,320.0,1.0,0.0,0.0,0.0,0.0,0.0,128.501,False,
2026-12-03 10:55:47.784,0.0,-0.09,0.12,-0.91,0.0,-3.66,4.21,14.429,3.764,-17.4,2.0,3.0,9.0,9.0,22.0,24.0,16.0,13.0,0.0,1.0,0.0,0.0,0.0,320.0,1.0,0.0,0.0,0.0,0.0,0.0,129.253,False,
2026-12-03 10:55:48.083,0.0,-0.08,0.07,-0.99,-12.08,3.29,-6.46,14.67,1.964,-16.5,3.0,3.0,9.0,9.0,20.0,23.0,17.0,13.0,0.0,-1.0,0.0,0.0,0.0,320.0,1.0,0.0,0.0,0.0,0.0,0.0,129.552,False,
2026-12-03 10:55:48.531,0.0,-0.07,0.08,-1.02,-3.84,1.03,-4.63,17.09,2.264,-17.1,3.0,2.0,8.0,7.0,20.0,23.0,17.0,13.0,0.0,0.0,0.0,0.0,0.0,320.0,1.0,0.0,0.0,0.0,0.0,0.0,130.0,False,
2026-12-03 10:55:49.284,0.0,-0.09,0.12,-1.02,-10.31,1.89,6.59,15.88,1.664,-18.0,3.0,2.0,9.0,9.0,21.0,23.0,18.0,14.0,0.0,0.0,0.0,0.0,0.0,320.0,1.0,0.0,0.0,0.0,0.0,0.0,130.753,False,
2026-12-03 10:55:49.588,0.0,-0.14,0.15,-1.03,-8.23,6.1,67.07,8.621,2.864,-15.6,3.0,2.0,10.0,10.0,22.0,25.0,28.0,11.0,0.0,-1.0,0.0,0.0,0.0,320.0,1.0,0.0,0.0,0.0,0.0,0.0,131.057,False,
2026-12-03 10:55:50.038,0.0,-0.12,0.02,-0.99,-16.72,14.77,33.44,4.506,0.764,-14.7,3.0,3.0,8.0,9.0,17.0,28.0,28.0,13.0,0.0,0.0,0.0,0.0,0.0,320.0,1.0,0.0,0.0,0.0,0.0,0.0,131.507,False,
2026-12-03 10:55:50.792,0.0,-0.08,0.04,-0.95,18.24,-28.68,-12.57,4.99,-0.736,-14.7,3.0,3.0,12.0,13.0,18.0,19.0,19.0,8.0,0.0,0.0,0.0,0.0,0.0,320.0,1.0,0.0,0.0,0.0,0.0,0.0,132.261,False,
2026-12-03 10:55:51.139,0.0,0.0,0.11,-0.91,3.35,2.44,14.16,3.054,-2.536,-11.4,3.0,3.0,11.0,13.0,29.0,20.0,18.0,13.0,0.0,1.0,0.0,0.0,0.0,320.0,1.0,0.0,0.0,0.0,0.0,0.0,132.608,False,
